Folder: Data_plot_collaborate/PXRD

Note: README.md
# Data_plot_collaborate

File: xrd2.xyd
1	325
1.075	532
1.15	2238
1.225	3986
1.3	5084
1.375	4988
1.45	4983
1.525	5159
1.6	5162
1.675	5269
1.75	5611
1.825	6168
1.9	6538
1.975	7484
2.05	8469
2.125	10416
2.2	12982
2.275	16741
2.35	26848
2.425	33285
2.5	3770
2.575	2772
2.65	2547
2.725	2497
2.8	2413
2.875	2353
2.95	2269
3.025	2329
3.1	2310
3.175	2276
3.25	2334
3.325	2168
3.4	2089
3.475	2238
3.55	2148
3.625	2161
3.7	2159
3.775	2083
3.85	2053
3.925	2249
4	2241
4.075	2294
4.15	2731
4.225	2584
4.3	2563
4.375	2969
4.45	3855
4.525	5019
4.6	5556
4.675	7281
4.75	11741
4.825	22566
4.9	4436
4.975	2661
5.05	3307
5.125	4961
5.2	4645
5.275	2144
5.35	2104
5.425	2275
5.5	2204
5.575	2322
5.65	2731
5.725	2960
5.8	2095
5.875	2057
5.95	2190
6.025	2191
6.1	2125
6.175	2193
6.25	2167
6.325	2299
6.4	2579
6.475	2672
6.55	3223
6.625	5388
6.7	3851
6.775	2543
6.85	3204
6.925	4391
7	8330
7.075	17916
7.15	4596
7.225	4761
7.3	3435
7.375	1896
7.45	1785
7.525	1757
7.6	1748
7.675	1789
7.75	1726
7.825	1828
7.9	1857
7.975	1891
8.05	2041
8.125	2452
8.2	4233
8.275	2998
8.35	1784
8.425	1610
8.5	1643
8.575	1486
8.65	1592
8.725	1614
8.8	1467
8.875	1477
8.95	1482
9.025	1470
9.1	1424
9.175	1467
9.25	1373
9.325	1443
9.4	1472
9.475	1526
9.55	1867
9.625	2781
9.7	3542
9.775	2836
9.85	5326
9.925	1705
10	1421
10.075	1408
10.15	1586
10.225	1391
10.3	1384
10.375	1384
10.45	1397
10.525	1332
10.6	1387
10.675	1325
10.75	1318
10.825	1299
10.9	1300
10.975	1487
11.05	1452
11.125	1474
11.2	1509
11.275	1375
11.35	1493
11.425	2060
11.5	1487
11.575	1353
11.65	1451
11.725	1646
11.8	1610
11.875	1346
11.95	1300
12.025	1495
12.1	1834
12.175	1792
12.25	1411
12.325	1279
12.4	1298
12.475	1267
12.55	1285
12.625	1316
12.7	1241
12.775	1236
12.85	1203
12.925	1184
13	1242
13.075	1280
13.15	1313
13.225	1343
13.3	1770
13.375	1702
13.45	1286
13.525	1346
13.6	1238
13.675	1215
13.75	1196
13.825	1191
13.9	1131
13.975	1210
14.05	1172
14.125	1186
14.2	1200
14.275	1096
14.35	1151
14.425	1211
14.5	1614
14.575	1758
14.65	1139
14.725	1172
14.8	1234
14.875	1121
14.95	1156
15.025	1184
15.1	1217
15.175	1357
15.25	1190
15.325	1128
15.4	1195
15.475	1349
15.55	1131
15.625	1103
15.7	1114
15.775	1145
15.85	1158
15.925	1061
16	1157
16.075	1185
16.15	1113
16.225	1214
16.3	1353
16.375	1156
16.45	1154
16.525	1144
16.6	1117
16.675	1082
16.75	1167
16.825	1164
16.9	1165
16.975	1152
17.05	1255
17.125	1114
17.2	1145
17.275	1160
17.35	1136
17.425	1149
17.5	1124
17.575	1135
17.65	1064
17.725	1170
17.8	1205
17.875	1143
17.95	1084
18.025	1152
18.1	1162
18.175	1165
18.25	1145
18.325	1142
18.4	1175
18.475	1058
18.55	1105
18.625	1037
18.7	1096
18.775	1114
18.85	1099
18.925	1074
19	1186
19.075	1117
19.15	1103
19.225	1096
19.3	1076
19.375	1050
19.45	1153
19.525	1060
19.6	1109
19.675	1056
19.75	1136
19.825	1111
19.9	1393
19.975	1316
20.05	1051
20.125	1064
20.2	1022
20.275	1022
20.35	1014
20.425	1024
20.5	1048
20.575	956
20.65	981
20.725	972
20.8	973
20.875	918
20.95	912
21.025	995
21.085	1102